File: Espectroscopia Raman/Data/Dados - 1303 - agua destilada.csv
comp(1),comp_corrected(1),raman_shift(1),vidro(ex 350 5-5),plastico(ex 350 5-5),comp(2),comp_corrected(2),raman_shift(2),vidro(ex 400 5-5),plastico(ex 400 5-5),comp(3),comp_corrected(3),raman_shift(3),vidro(ex 450 10-10),plastico(ex 450 10-10),comp(4),comp_corrected(4),raman_shift(4),vidro(ex 500 10-10),plastico(ex 500 10-10)
250,261,-9742.75,0.338,0.687,300,311,-13314.2,0.273,0.609,350,361,-16092,0.592,1.184,450,461,-18314.2,0.248,1.097
251,262,-9596.51,0.3536,0.633,301,312,-13167.9,0.3334,0.6007,351,362,-15945.7,0.6538,1.2738,451,462,-18167.9,0.2328,1.0983
252,263,-9451.39,0.4146,0.6648,302,313,-13022.8,0.3412,0.5727,352,363,-15800.6,0.6605,1.283,452,463,-18022.8,0.2366,1.1115
253,264,-9307.36,0.3965,0.6944,303,314,-12878.8,0.336,0.5491,353,364,-15656.6,0.6738,1.3124,453,464,-17878.8,0.2366,1.1206
254,265,-9164.42,0.3023,0.7121,304,315,-12735.8,0.3239,0.5617,354,365,-15513.6,0.6824,1.3266,454,465,-17735.8,0.238,1.1325
255,266,-9022.56,0.2785,0.6903,305,316,-12594,0.2323,0.5929,355,366,-15371.8,0.6939,1.3326,455,466,-17594,0.2401,1.1445
256,267,-8881.75,0.295,0.6953,306,317,-12453.2,0.1748,0.6314,356,367,-15231,0.6877,1.3292,456,467,-17453.2,0.2442,1.1572
257,268,-8742,0.3691,0.6926,307,318,-12313.4,0.2401,0.6115,357,368,-15091.2,0.6944,1.3479,457,468,-17313.4,0.2462,1.1702
258,269,-8603.29,0.2803,0.6568,308,319,-12174.7,0.3208,0.6083,358,369,-14952.5,0.6896,1.3764,458,469,-17174.7,0.2472,1.1824
259,270,-8465.61,0.1696,0.6393,309,320,-12037,0.3797,0.6097,359,370,-14814.8,0.6928,1.3892,459,470,-17037,0.2497,1.1956
260,271,-8328.94,0.1225,0.7157,310,321,-11900.369,0.3364,0.5952,360,371,-14678.1,0.7057,1.3922,460,471,-16900.369,0.2539,1.2073
261,272,-8193.28,0.0795,0.8317,311,322,-11764.7,0.2946,0.5663,361,372,-14542.5,0.7037,1.4337,461,472,-16764.7,0.2552,1.214
262,273,-8058.61,0.1846,0.8686,312,323,-11630,0.2505,0.5568,362,373,-14407.8,0.7063,1.4468,462,473,-16630,0.2554,1.2287
263,274,-7924.92,0.3617,0.8117,313,324,-11496.4,0.224,0.5762,363,374,-14274.1,0.7066,1.4553,463,474,-16496.4,0.2546,1.2511
264,275,-7792.21,0.5036,0.816,314,325,-11363.6,0.2526,0.6138,364,375,-14141.4,0.7081,1.4519,464,475,-16363.6,0.2559,1.281
265,276,-7660.46,0.5312,0.7833,315,326,-11231.9,0.2944,0.6134,365,376,-14009.7,0.7093,1.4277,465,476,-16231.9,0.2555,1.3193
266,277,-7529.65,0.43,0.7955,316,327,-11101.1,0.3457,0.6038,366,377,-13878.9,0.71,1.4349,466,477,-16101.1,0.2525,1.3588
267,278,-7399.79,0.323,0.713,317,328,-10971.2,0.3525,0.5954,367,378,-13749,0.7151,1.4278,467,478,-15971.2,0.2485,1.3779
268,279,-7270.87,0.3001,0.7174,318,329,-10842.3,0.337,0.5677,368,379,-13620.1,0.7183,1.4305,468,479,-15842.3,0.2422,1.3702
269,280,-7142.86,0.3032,0.7036,319,330,-10714.3,0.2639,0.568,369,380,-13492.1,0.7232,1.4388,469,480,-15714.3,0.2417,1.3442
270,281,-7015.76,0.2577,0.6595,320,331,-10587.2,0.2424,0.5839,370,381,-13365,0.7201,1.4235,470,481,-15587.2,0.2587,1.3859
271,282,-6889.56,0.1816,0.6046,321,332,-10461,0.2169,0.6229,371,382,-13238.8,0.7245,1.4141,471,482,-15461,0.3315,1.6634
272,283,-6764.26,0.1557,0.5618,322,333,-10335.7,0.3043,0.6315,372,383,-13113.5,0.7197,1.4386,472,483,-15335.7,0.5247,2.4719
273,284,-6639.84,0.1914,0.6026,323,334,-10211.3,0.41,0.6398,373,384,-12989,0.7215,1.4604,473,484,-15211.3,0.9306,4.2613
274,285,-6516.29,0.2308,0.6348,324,335,-10087.7,0.3736,0.6256,374,385,-12865.5,0.7109,1.4932,474,485,-15087.7,1.6683,7.6264
275,286,-6393.61,0.1607,0.7085,325,336,-9965.03,0.3706,0.6006,375,386,-12742.8,0.7029,1.5371,475,486,-14965,2.9162,13.5693
276,287,-6271.78,0.1928,0.7721,326,337,-9843.21,0.3685,0.5967,376,387,-12621,0.6927,1.5734,476,487,-14843.2,4.8256,23.0053
277,288,-6150.79,0.2915,0.7064,327,338,-9722.22,0.3944,0.606,377,388,-12500,0.6855,1.6035,477,488,-14722.2,7.6345,37.3406
278,289,-6030.65,0.3959,0.6145,328,339,-9602.08,0.3697,0.6341,378,389,-12379.9,0.6909,1.6245,478,489,-14602.1,11.5562,58.0248
279,290,-5911.33,0.4905,0.5658,329,340,-9482.76,0.3351,0.6285,379,390,-12260.5,0.7026,1.626,479,490,-14482.8,16.7029,85.9289
280,291,-5792.83,0.3758,0.7248,330,341,-9364.26,0.3219,0.6327,380,391,-12142,0.7131,1.6312,480,491,-14364.3,23.1638,122.3994
281,292,-5675.15,0.3173,0.8968,331,342,-9246.58,0.276,0.5617,381,392,-12024.4,0.729,1.6507,481,492,-14246.6,30.8707,167.4022
282,293,-5558.26,0.2246,0.8415,332,343,-9129.69,0.3225,0.5426,382,393,-11907.5,0.7414,1.6436,482,493,-14129.7,39.6688,220.5729
283,294,-5442.18,0.1039,0.7668,333,344,-9013.61,0.317,0.5497,383,394,-11791.4,0.7336,1.6317,483,494,-14013.6,49.2814,281.2699
284,295,-5326.88,0.1765,0.579,334,345,-8898.31,0.4011,0.5972,384,395,-11676.1,0.7245,1.6604,484,495,-13898.3,59.2913,347.581
285,296,-5212.36,0.225,0.5739,335,346,-8783.78,0.3664,0.644,385,396,-11561.6,0.7175,1.6773,485,496,-13783.8,69.1138,416.7706
286,297,-5098.61,0.2299,0.6104,336,347,-8670.03,0.3525,0.5785,386,397,-11447.8,0.7013,1.6982,486,497,-13670,78.1685,484.6769
287,298,-4985.62,0.2583,0.6386,337,348,-8557.05,0.349,0.5777,387,398,-11334.8,0.7005,1.7242,487,498,-13557,85.9025,546.9457
288,299,-4873.39,0.2926,0.6548,338,349,-8444.82,0.3255,0.5358,388,399,-11222.6,0.6977,1.7475,488,499,-13444.8,91.6983,599.5348
289,300,-4761.9,0.3599,0.6243,339,350,-8333.33,0.353,0.5521,389,400,-11111.1,0.6987,1.7737,489,500,-13333.3,95.0055,638.6647
290,301,-4651.16,0.39,0.694,340,351,-8222.59,0.3879,0.5819,390,401,-11000.4,0.6996,1.789,490,501,-13222.6,95.6439,661.3013
291,302,-4541.15,0.3354,0.7091,341,352,-8112.58,0.393,0.6019,391,402,-10890.4,0.702,1.7838,491,502,-13112.6,93.5399,664.9199
292,303,-4431.87,0.3748,0.6677,342,353,-8003.3,0.3923,0.5834,392,403,-10781.1,0.705,1.7687,492,503,-13003.3,88.8758,649.6213
293,304,-4323.31,0.4356,0.552,343,354,-7894.74,0.3396,0.5698,393,404,-10672.5,0.7079,1.7641,493,504,-12894.7,82.0256,616.681
294,305,-4215.46,0.4411,0.6484,344,355,-7786.89,0.402,0.5966,394,405,-10564.7,0.7069,1.7771,494,505,-12786.9,73.509,568.2622
295,306,-4108.31,0.4572,0.8643,345,356,-7679.74,0.4308,0.6229,395,406,-10457.5,0.708,1.7676,495,506,-12679.7,63.9189,507.9537
296,307,-4001.86,0.3363,1.0183,346,357,-7573.29,0.4344,0.619,396,407,-10351.1,0.7026,1.8043,496,507,-12573.3,53.9129,439.2784
297,308,-3896.1,0.2771,0.9545,347,358,-7467.53,0.3648,0.6161,397,408,-10245.3,0.6941,1.8349,497,508,-12467.5,44.0316,366.9912
298,309,-3791.03,0.2782,0.8678,348,359,-7362.46,0.3702,0.6413,398,409,-10140.2,0.682,1.8826,498,509,-12362.5,34.7077,295.7157
299,310,-3686.64,0.2241,0.8169,349,360,-7258.06,0.4286,0.6829,399,410,-10035.8,0.6827,1.9247,499,510,-12258.1,26.2792,229.0294
300,311,-3582.91,0.1696,0.9089,350,361,-7154.34,0.4319,0.6932,400,411,-9932.12,0.6828,1.9613,500,511,-12154.3,19.1433,170
301,312,-3479.85,0.1566,0.8649,351,362,-7051.28,0.4062,0.6401,401,412,-9829.06,0.6874,1.9867,501,512,-12051.3,13.2839,120.0407
302,313,-3377.45,0.271,0.7354,352,363,-6948.88,0.3655,0.6142,402,413,-9726.66,0.7112,2.0391,502,513,-11948.9,8.7491,79.9857
303,314,-3275.71,0.3495,0.6376,353,364,-6847.13,0.4074,0.5311,403,414,-9624.91,0.721,2.0656,503,514,-11847.1,5.3882,49.9787
304,315,-3174.6,0.377,0.6978,354,365,-6746.03,0.4541,0.5366,404,415,-9523.81,0.7291,2.103,504,515,-11746,3.0798,28.6725
305,316,-3074.14,0.4121,0.8192,355,366,-6645.57,0.4471,0.646,405,416,-9423.35,0.7251,2.1176,505,516,-11645.6,1.6312,14.8595
306,317,-2974.31,0.2724,0.8539,356,367,-6545.74,0.4377,0.7006,406,417,-9323.52,0.7118,2.1505,506,517,-11545.7,0.7875,6.682
307,318,-2875.11,0.2224,0.7807,357,368,-6446.54,0.416,0.7951,407,418,-9224.32,0.7054,2.1943,507,518,-11446.5,0.3703,2.5887
308,319,-2776.53,0.1813,0.5947,358,369,-6347.96,0.4173,0.7627,408,419,-9125.74,0.7037,2.259,508,519,-11348,0.2046,0.8878
309,320,-2678.57,0.2835,0.7432,359,370,-6250,0.4424,0.7401,409,420,-9027.78,0.6994,2.3158,509,520,-11250,0.1733,0.5389
310,321,-2581.22,0.3916,0.9111,360,371,-6152.65,0.4499,0.6394,410,421,-8930.43,0.7068,2.3704,510,521,-11152.6,0.1993,0.7443
311,322,-2484.47,0.3248,1.0757,361,372,-6055.9,0.4428,0.6214,411,422,-8833.68,0.7161,2.4172,511,522,-11055.9,0.2351,0.9922
312,323,-2388.32,0.3556,1.0694,362,373,-5959.75,0.4635,0.6175,412,423,-8737.53,0.72,2.4852,512,523,-10959.8,0.2584,1.1466
313,324,-2292.77,0.3472,0.966,363,374,-5864.2,0.4974,0.6766,413,424,-8641.98,0.7231,2.5446,513,524,-10864.2,0.2608,1.1714
314,325,-2197.8,0.4921,1.0365,364,375,-5769.23,0.5235,0.6874,414,425,-8547.01,0.7409,2.593,514,525,-10769.2,0.2558,1.1587
315,326,-2103.42,0.4557,1.123,365,376,-5674.85,0.4978,0.6544,415,426,-8452.62,0.7445,2.6034,515,526,-10674.8,0.2531,1.1263
316,327,-2009.61,0.3774,1.1539,366,377,-5581.04,0.4811,0.5878,416,427,-8358.82,0.7582,2.6148,516,527,-10581,0.2488,1.0914
317,328,-1916.38,0.2182,1.086,367,378,-5487.8,0.4463,0.6296,417,428,-8265.58,0.7582,2.6221,517,528,-10487.8,0.2447,1.058
318,329,-1823.71,0.2376,1.0937,368,379,-5395.14,0.4317,0.6731,418,429,-8172.91,0.7593,2.6602,518,529,-10395.1,0.2391,1.0265
319,330,-1731.6,0.3604,1.1714,369,380,-5303.03,0.467,0.809,419,430,-8080.81,0.7538,2.5815,519,530,-10303,0.2313,0.9948
320,331,-1640.05,0.4376,1.3351,370,381,-5211.48,0.4837,0.8725,420,431,-7989.26,0.7216,2.4585,520,531,-10211.5,0.2246,0.9649
321,332,-1549.05,0.5344,1.3927,371,382,-5120.48,0.5077,0.8421,421,432,-7898.26,0.7636,2.7057,521,532,-10120.5,0.2221,0.9372
322,333,-1458.6,0.5469,1.3944,372,383,-5030.03,0.4992,0.8797,422,433,-7807.81,0.9018,3.0823,522,533,-10030,0.224,0.9134
323,334,-1368.69,0.5894,1.4936,373,384,-4940.12,0.5277,0.8138,423,434,-7717.9,1.3943,4.9497,523,534,-9940.12,0.2285,0.8996
324,335,-1279.32,0.6348,1.4547,374,385,-4850.75,0.472,1.0192,424,435,-7628.52,2.3055,8.2837,524,535,-9850.75,0.2363,0.8877
325,336,-1190.48,0.492,1.4833,375,386,-4761.9,0.4504,1.2003,425,436,-7539.68,4.4906,17.401,525,536,-9761.9,0.235,0.8749
326,337,-1102.16,0.463,1.5385,376,387,-4673.59,0.444,1.3676,426,437,-7451.37,8.0885,32.5176,526,537,-9673.59,0.22,0.8611
327,338,-1014.37,0.4476,1.7568,377,388,-4585.8,0.4095,1.404,427,438,-7363.58,13.2373,54.9143,527,538,-9585.8,0.1939,0.8441
328,339,-927.097,0.4878,1.7498,378,389,-4498.53,0.5103,1.3219,428,439,-7276.3,21.2331,90.0505,528,539,-9498.53,0.1619,0.8234
329,340,-840.336,0.5625,1.8933,379,390,-4411.76,0.6519,2.1112,429,440,-7189.54,31.5308,137.5819,529,540,-9411.76,0.1369,0.7988
330,341,-754.085,0.5601,3.0381,380,391,-4325.51,1.5348,5.9174,430,441,-7103.29,45.2451,203.0516,530,541,-9325.51,0.1193,0.7767
331,342,-668.338,1.3514,7.6647,381,392,-4239.77,4.7821,18.3244,431,442,-7017.54,63.0565,289.7697,531,542,-9239.77,0.1119,0.7557
332,343,-583.09,3.2829,20.857,382,393,-4154.52,11.798,42.879,432,443,-6932.3,83.6655,393.7852,532,543,-9154.52,0.1144,0.7397
333,344,-498.339,8.7377,55.5699,383,394,-4069.77,26.4955,96.5324,433,444,-6847.55,106.9649,520.3949,533,544,-9069.77,0.1202,0.725
334,345,-414.079,18.3775,115.0942,384,395,-3985.51,50.2286,177.6749,434,445,-6763.29,132.1681,652.3654,534,545,-8985.51,0.1216,0.7097
335,346,-330.306,33.7816,220.6411,385,396,-3901.73,80.327,282.6194,435,446,-6679.51,157.6183,776.8274,535,546,-8901.73,0.1149,0.6947
336,347,-247.015,53.0692,352.3563,386,397,-3818.44,111.7123,394.5173,436,447,-6596.22,182.1243,878.4437,536,547,-8818.44,0.1041,0.6841
337,348,-164.204,72.5619,494.6991,387,398,-3735.63,138.8358,492.3783,437,448,-6513.41,203.7832,952.8144,537,548,-8735.63,0.1008,0.6837
338,349,-81.8666,89.3105,620.2542,388,399,-3653.3,157.5651,560.1796,438,449,-6431.07,220.9849,998.1778,538,549,-8653.3,0.1107,0.688
339,350,0,97.2373,689.772,389,400,-3571.43,160.6376,573.0379,439,450,-6349.21,232.6589,999.999,539,550,-8571.43,0.1302,0.7004
340,351,81.4001,97.9502,706.2628,390,401,-3490.03,146.7455,523.5177,440,451,-6267.81,239.439,999.999,540,551,-8490.03,0.1588,0.71
341,352,162.338,86.4997,631.3511,391,402,-3409.09,120.9791,431.4435,441,452,-6186.87,239.2257,999.999,541,552,-8409.09,0.1825,0.7112
342,353,242.817,69.0635,506.5109,392,403,-3328.61,89.4345,319.8579,442,453,-6106.39,233.4635,999.999,542,553,-8328.61,0.1988,0.7022
343,354,322.841,49.5161,361.346,393,404,-3248.59,59.282,209.7834,443,454,-6026.37,221.1162,999.999,543,554,-8248.59,0.2061,0.6868
344,355,402.414,31.9692,235.7248,394,405,-3169.01,34.0607,124.0629,444,455,-5946.79,203.4126,999.999,544,555,-8169.01,0.2014,0.6648
345,356,481.541,19.0088,140.2252,395,406,-3089.89,16.3748,60.135,445,456,-5867.67,181.7813,966.5122,545,556,-8089.89,0.188,0.6373
346,357,560.224,8.8102,67.3424,396,407,-3011.2,7.2406,26.3046,446,457,-5788.98,157.6821,897.2839,546,557,-8011.2,0.173,0.6164
347,358,638.468,3.2261,26.4016,397,408,-2932.96,2.3417,8.1273,447,458,-5710.74,132.6276,800.6932,547,558,-7932.96,0.1581,0.6038
348,359,716.275,1.0345,6.904,398,409,-2855.15,0.8522,1.9188,448,459,-5632.93,107.6427,680.1821,548,559,-7855.15,0.1492,0.5953
349,360,793.651,0.6151,2.1514,399,410,-2777.78,0.583,1.4265,449,460,-5555.56,85.0612,547.7076,549,560,-7777.78,0.1445,0.5896
350,361,870.598,0.6457,2.1679,400,411,-2700.83,0.5373,1.3431,450,461,-5478.61,64.7376,416.5386,550,561,-7700.83,0.1413,0.5823
351,362,947.119,0.732,2.2285,401,412,-2624.31,0.5782,1.4005,451,462,-5402.09,47.7368,305.5131,551,562,-7624.31,0.1386,0.5721
352,363,1023.22,0.7407,2.0995,402,413,-2548.21,0.5959,1.4209,452,463,-5325.99,33.968,217.4979,552,563,-7548.21,0.1375,0.5637
353,364,1098.9,0.7268,2.0665,403,414,-2472.53,0.5962,1.5839,453,464,-5250.31,22.5698,145.1656,553,564,-7472.53,0.1352,0.5587
354,365,1174.17,0.7282,2.0675,404,415,-2397.26,0.5185,1.6856,454,465,-5175.04,14.3767,93.0177,554,565,-7397.26,0.1295,0.5557
355,366,1249.02,0.6541,2.0845,405,416,-2322.4,0.4858,1.35,455,466,-5100.18,8.7803,56.2959,555,566,-7322.4,0.127,0.5522
356,367,1323.47,0.6065,2.01,406,417,-2247.96,0.5188,1.2773,456,467,-5025.73,4.9151,30.5656,556,567,-7247.96,0.1243,0.5493
357,368,1397.52,0.5358,1.7915,407,418,-2173.91,0.5312,1.2022,457,468,-4951.69,2.7265,15.9748,557,568,-7173.91,0.1229,0.5443
358,369,1471.16,0.5493,1.7629,408,419,-2100.27,0.5499,1.1471,458,469,-4878.05,1.3832,7.0631,558,569,-7100.27,0.1207,0.5409
359,370,1544.4,0.6613,1.7273,409,420,-2027.03,0.4673,1.1207,459,470,-4804.8,0.8806,3.3898,559,570,-7027.03,0.1202,0.539
360,371,1617.25,0.6634,1.8692,410,421,-1954.18,0.431,1.1222,460,471,-4731.96,0.6463,1.9089,560,571,-6954.18,0.1194,0.5373
361,372,1689.71,0.6944,1.886,411,422,-1881.72,0.4022,1.3015,461,472,-4659.5,0.6169,1.7442,561,572,-6881.72,0.1205,0.5342
362,373,1761.78,0.6501,1.7463,412,423,-1809.65,0.3683,1.1154,462,473,-4587.43,0.6736,2.131,562,573,-6809.65,0.1261,0.5338
363,374,1833.46,0.6775,1.8728,413,424,-1737.97,0.4669,1.0867,463,474,-4515.75,0.6919,2.3863,563,574,-6737.97,0.1279,0.5296
364,375,1904.76,0.7285,1.8657,414,425,-1666.67,0.5308,1.1192,464,475,-4444.44,0.723,2.5069,564,575,-6666.67,0.1327,0.5293
365,376,1975.68,0.7252,1.9018,415,426,-1595.74,0.6059,1.1929,465,476,-4373.52,0.72,2.4579,565,576,-6595.74,0.1402,0.5302
366,377,2046.23,0.6592,1.8629,416,427,-1525.2,0.5928,0.9175,466,477,-4302.98,0.7023,2.3902,566,577,-6525.2,0.1517,0.5323
367,378,2116.4,0.6418,1.8006,417,428,-1455.03,0.5474,0.6993,467,478,-4232.8,0.6845,2.3433,567,578,-6455.03,0.1602,0.5335
368,379,2186.2,0.6616,1.8148,418,429,-1385.22,0.4915,0.7172,468,479,-4163,0.6709,2.299,568,579,-6385.22,0.166,0.5303
369,380,2255.64,0.7177,1.7545,419,430,-1315.79,0.4187,0.7577,469,480,-4093.57,0.6573,2.2401,569,580,-6315.79,0.1729,0.5328
370,381,2324.71,0.6743,1.7893,420,431,-1246.72,0.4056,0.7561,470,481,-4024.5,0.6603,2.22,570,581,-6246.72,0.1801,0.5338
371,382,2393.42,0.6667,1.8367,421,432,-1178.01,0.3924,0.5595,471,482,-3955.79,0.6611,2.1953,571,582,-6178.01,0.1832,0.5318
372,383,2461.77,0.6894,1.8607,422,433,-1109.66,0.2956,0.6237,472,483,-3887.44,0.66,2.2029,572,583,-6109.66,0.1855,0.5327
373,384,2529.76,0.6944,1.7684,423,434,-1041.67,0.2121,0.6293,473,484,-3819.44,0.6584,2.2018,573,584,-6041.67,0.1895,0.5309
374,385,2597.4,0.7004,1.803,424,435,-974.026,0.1402,0.7004,474,485,-3751.8,0.6559,2.1833,574,585,-5974.03,0.193,0.5329
375,386,2664.69,0.7041,1.886,425,436,-906.736,0.1275,0.7819,475,486,-3684.51,0.6636,2.1662,575,586,-5906.74,0.1954,0.5334
376,387,2731.64,0.7324,2.041,426,437,-839.793,0.1138,0.803,476,487,-3617.57,0.6471,2.1457,576,587,-5839.79,0.2,0.5349
377,388,2798.23,0.7004,2.1358,427,438,-773.196,0.1298,0.681,477,488,-3550.97,0.6266,2.1108,577,588,-5773.2,0.205,0.5311
378,389,2864.49,0.8145,2.127,428,439,-706.941,0.2525,0.4826,478,489,-3484.72,0.6138,2.0753,578,589,-5706.94,0.2115,0.5294
379,390,2930.4,0.9413,2.2047,429,440,-641.026,0.3654,0.6089,479,490,-3418.8,0.5957,2.0096,579,590,-5641.03,0.2194,0.5296
380,391,2995.98,1.2316,2.3219,430,441,-575.448,0.4312,0.7512,480,491,-3353.23,0.5748,1.9654,580,591,-5575.45,0.2246,0.5296
381,392,3061.22,1.6411,2.4046,431,442,-510.204,0.3946,0.8127,481,492,-3287.98,0.555,1.9036,581,592,-5510.2,0.2265,0.5304
382,393,3126.14,1.8987,2.4971,432,443,-445.293,0.4022,0.7064,482,493,-3223.07,0.5361,1.8728,582,593,-5445.29,0.2302,0.5355
383,394,3190.72,2.2005,2.9046,433,444,-380.711,0.4971,0.5954,483,494,-3158.49,0.5173,1.8388,583,594,-5380.71,0.2344,0.5359
384,395,3254.97,2.2422,3.3824,434,445,-316.456,0.4914,0.8265,484,495,-3094.23,0.5205,1.8078,584,595,-5316.46,0.2359,0.5382
385,396,3318.9,2.3076,3.7876,435,446,-252.525,0.4542,0.8464,485,496,-3030.3,0.5218,1.7796,585,596,-5252.53,0.2349,0.542
386,397,3382.51,2.236,3.7651,436,447,-188.917,0.4124,0.8264,486,497,-2966.69,0.5096,1.735,586,597,-5188.92,0.2366,0.545
387,398,3445.8,2.1438,3.515,437,448,-125.628,0.3829,0.8089,487,498,-2903.41,0.4989,1.697,587,598,-5125.63,0.2371,0.546
388,399,3508.77,2.0854,3.3656,438,449,-62.6566,0.3727,0.6247,488,499,-2840.43,0.4968,1.6646,588,599,-5062.66,0.2362,0.5464
389,400,3571.43,2.2104,3.1636,439,450,0,0.3495,0.6821,489,500,-2777.78,0.4885,1.6706,589,600,-5000,0.235,0.5427
390,401,3633.77,2.1142,2.868,440,451,62.3441,0.3387,0.6625,490,501,-2715.43,0.4692,1.6684,590,601,-4937.66,0.2359,0.5416
391,402,3695.81,1.8247,2.5038,441,452,124.378,0.4079,0.6889,491,502,-2653.4,0.4617,1.6459,591,602,-4875.62,0.2358,0.5414
392,403,3757.53,1.6808,2.2511,442,453,186.104,0.4586,0.7152,492,503,-2591.67,0.4599,1.6441,592,603,-4813.9,0.2391,0.5406
393,404,3818.95,1.2924,2.1655,443,454,247.525,0.4498,0.8372,493,504,-2530.25,0.4561,1.6339,593,604,-4752.48,0.2425,0.5434
394,405,3880.07,1.0916,2.0834,444,455,308.642,0.399,1.1004,494,505,-2469.14,0.45,1.6237,594,605,-4691.36,0.2464,0.5488
395,406,3940.89,0.8266,1.9785,445,456,369.458,0.4231,1.1692,495,506,-2408.32,0.4482,1.6201,595,606,-4630.54,0.25,0.5476
396,407,4001.4,0.714,1.9194,446,457,429.975,0.5978,1.2369,496,507,-2347.8,0.4519,1.5962,596,607,-4570.02,0.2523,0.5474
397,408,4061.62,0.6854,2.0128,447,458,490.196,0.8557,1.181,497,508,-2287.58,0.4449,1.5729,597,608,-4509.8,0.2448,0.541
398,409,4121.55,0.6464,2.0936,448,459,550.122,1.1213,1.3867,498,509,-2227.66,0.4359,1.5716,598,609,-4449.88,0.2352,0.5325
399,410,4181.18,0.7721,2.109,449,460,609.756,1.1832,1.5063,499,510,-2168.02,0.4317,1.5846,599,610,-4390.24,0.2188,0.5138
400,411,4240.53,0.8239,2.1232,450,461,669.1,1.2048,1.5093,500,511,-2108.68,0.4298,1.5641,600,611,-4330.9,0.2057,0.4985
401,412,4299.58,0.8001,2.08,451,462,728.155,1.2147,1.5812,501,512,-2049.62,0.4492,1.5513,601,612,-4271.84,0.1906,0.4841
402,413,4358.35,0.7127,2.066,452,463,786.925,1.1154,1.5526,502,513,-1990.85,0.4535,1.5353,602,613,-4213.08,0.1846,0.4698
403,414,4416.84,0.6945,2.0651,453,464,845.411,1.1538,1.5998,503,514,-1932.37,0.4725,1.5274,603,614,-4154.59,0.1799,0.4594
404,415,4475.04,0.7889,2.131,454,465,903.614,1.0132,1.4766,504,515,-1874.16,0.4723,1.5341,604,615,-4096.39,0.1789,0.4458
405,416,4532.97,0.8713,2.1662,455,466,961.538,0.9214,1.3852,505,516,-1816.24,0.5134,1.5279,605,616,-4038.46,0.1791,0.4325
406,417,4590.61,0.8223,2.0876,456,467,1019.18,0.819,1.3988,506,517,-1758.59,0.5413,1.5317,606,617,-3980.82,0.175,0.4146
407,418,4647.98,0.9056,2.0849,457,468,1076.56,0.6292,1.3275,507,518,-1701.22,0.5761,1.5237,607,618,-3923.44,0.1594,0.3886
408,419,4705.08,0.7798,2.0937,458,469,1133.65,0.5605,1.2087,508,519,-1644.13,0.6242,1.5493,608,619,-3866.35,0.1347,0.3667
409,420,4761.9,0.7981,2.1205,459,470,1190.48,0.4709,0.8447,509,520,-1587.3,0.672,1.5532,609,620,-3809.52,0.1046,0.3415
410,421,4818.46,0.7977,2.0492,460,471,1247.03,0.3851,0.6613,510,521,-1530.75,0.6966,1.5806,610,621,-3752.97,0.0764,0.3257
411,422,4874.75,0.7367,2.0407,461,472,1303.32,0.3998,0.6348,511,522,-1474.46,0.7497,1.6255,611,622,-3696.68,0.051,0.314
412,423,4930.77,0.7366,2.1077,462,473,1359.34,0.3707,0.6463,512,523,-1418.44,0.7769,1.6561,612,623,-3640.66,0.0326,0.3065
413,424,4986.52,0.627,2.1791,463,474,1415.09,0.385,0.6232,513,524,-1362.68,0.8086,1.7003,613,624,-3584.91,0.0191,0.3043
414,425,5042.02,0.6712,2.1399,464,475,1470.59,0.3814,0.4385,514,525,-1307.19,0.8378,1.7269,614,625,-3529.41,0.0153,0.3054
415,426,5097.25,0.6785,2.041,465,476,1525.82,0.3741,0.4404,515,526,-1251.96,0.8807,1.7553,615,626,-3474.18,0.0145,0.3058
416,427,5152.22,0.8858,1.9552,466,477,1580.8,0.3852,0.5402,516,527,-1196.98,0.9127,1.7986,616,627,-3419.2,0.0169,0.3038
417,428,5206.94,0.8764,1.8799,467,478,1635.51,0.4782,0.6285,517,528,-1142.26,0.9392,1.8249,617,628,-3364.49,0.0158,0.3023
418,429,5261.41,0.8079,1.998,468,479,1689.98,0.5164,0.6897,518,529,-1087.8,0.956,1.8556,618,629,-3310.02,0.0159,0.3004
419,430,5315.61,0.7303,1.9699,469,480,1744.19,0.4404,0.6104,519,530,-1033.59,0.9623,1.8494,619,630,-3255.81,0.0174,0.2998
420,431,5369.57,0.7478,1.9903,470,481,1798.14,0.3812,0.5346,520,531,-979.634,0.9662,1.8508,620,631,-3201.86,0.0191,0.2996
421,432,5423.28,0.7267,1.9311,471,482,1851.85,0.2794,0.4703,521,532,-925.926,0.9652,1.8291,621,632,-3148.15,0.0204,0.2984
422,433,5476.74,0.492,1.8809,472,483,1905.31,0.2812,0.4042,522,533,-872.466,0.9442,1.8135,622,633,-3094.69,0.0211,0.3009
423,434,5529.95,0.4123,1.7933,473,484,1958.53,0.32,0.3847,523,534,-819.252,0.9334,1.7953,623,634,-3041.47,0.0214,0.3034
424,435,5582.92,0.4342,1.6535,474,485,2011.49,0.357,0.2634,524,535,-766.284,0.9002,1.7857,624,635,-2988.51,0.0244,0.3073
425,436,5635.65,0.5497,1.6712,475,486,2064.22,0.3274,0.3078,525,536,-713.558,0.8779,1.78,625,636,-2935.78,0.0273,0.3106
426,437,5688.13,0.3849,1.6148,476,487,2116.7,0.2488,0.3038,526,537,-661.073,0.8435,1.7661,626,637,-2883.3,0.0301,0.3143
427,438,5740.38,0.1776,1.6475,477,488,2168.95,0.1848,0.2447,527,538,-608.828,0.8132,1.7276,627,638,-2831.05,0.0354,0.3175
428,439,5792.39,0.2251,1.6529,478,489,2220.96,0.1683,0.2095,528,539,-556.821,0.781,1.6746,628,639,-2779.04,0.0388,0.3197
429,440,5844.16,0.4862,1.8413,479,490,2272.73,0.1804,0.2188,529,540,-505.051,0.7464,1.6027,629,640,-2727.27,0.043,0.3231
430,441,5895.69,0.6212,2.0869,480,491,2324.26,0.2262,0.275,530,541,-453.515,0.6931,1.5401,630,641,-2675.74,0.045,0.3263
431,442,5946.99,0.7098,2.1351,481,492,2375.57,0.2625,0.272,531,542,-402.212,0.6538,1.4495,631,642,-2624.43,0.0473,0.3289
432,443,5998.07,0.7181,2.0364,482,493,2426.64,0.2275,0.3083,532,543,-351.141,0.5924,1.385,632,643,-2573.36,0.0465,0.3334
433,444,6048.91,0.6889,1.8758,483,494,2477.48,0.1902,0.352,533,544,-300.3,0.5418,1.3324,633,644,-2522.52,0.0469,0.3351
434,445,6099.52,0.7267,1.7922,484,495,2528.09,0.1789,0.3619,534,545,-249.688,0.4915,1.296,634,645,-2471.91,0.0475,0.3351
435,446,6149.9,0.7876,1.7264,485,496,2578.48,0.2114,0.3695,535,546,-199.302,0.4551,1.2657,635,646,-2421.52,0.047,0.3363
436,447,6200.06,0.7144,1.7472,486,497,2628.64,0.2657,0.3438,536,547,-149.142,0.4155,1.2499,636,647,-2371.36,0.0448,0.3371
437,448,6250,0.659,1.7516,487,498,2678.57,0.2561,0.3619,537,548,-99.2063,0.4079,1.233,637,648,-2321.43,0.0463,0.3371
438,449,6299.71,0.5022,1.9418,488,499,2728.29,0.1803,0.4285,538,549,-49.4927,0.3925,1.2211,638,649,-2271.71,0.0459,0.3387
439,450,6349.21,0.4416,1.845,489,500,2777.78,0.2252,0.4035,539,550,0,0.3711,1.2254,639,650,-2222.22,0.0459,0.3421
440,451,6398.48,0.4687,1.7494,490,501,2827.05,0.3149,0.4583,540,551,49.27322,0.3588,1.2173,640,651,-2172.95,0.0451,0.3452
441,452,6447.53,0.419,1.7222,491,502,2876.11,0.4284,0.4692,541,552,98.3284,0.3299,1.1784,641,652,-2123.89,0.047,0.3488
442,453,6496.37,0.5831,1.8161,492,503,2924.94,0.4243,0.5696,542,553,147.167,0.3008,1.1456,642,653,-2075.06,0.049,0.3526
443,454,6545,0.6765,1.9345,493,504,2973.57,0.2995,0.5399,543,554,195.791,0.285,1.1144,643,654,-2026.43,0.0521,0.3525
444,455,6593.41,0.5735,1.8497,494,505,3021.98,0.3174,0.453,544,555,244.2,0.2631,1.1,644,655,-1978.02,0.0537,0.3571
445,456,6641.6,0.4749,1.7978,495,506,3070.18,0.3911,0.4767,545,556,292.398,0.2506,1.0656,645,656,-1929.82,0.0542,0.3601
446,457,6689.59,0.4733,1.6477,496,507,3118.16,0.4346,0.5298,546,557,340.384,0.2563,1.0525,646,657,-1881.84,0.057,0.3652
447,458,6737.37,0.5702,1.6682,497,508,3165.94,0.4632,0.6816,547,558,388.161,0.2556,1.0378,647,658,-1834.06,0.0596,0.3703
448,459,6784.94,0.602,1.6446,498,509,3213.51,0.3846,0.6743,548,559,435.73,0.2579,1.0443,648,659,-1786.49,0.0599,0.3756
449,460,6832.3,0.5951,1.5887,499,510,3260.87,0.3602,0.6642,549,560,483.092,0.249,1.021,649,660,-1739.13,0.0628,0.385
450,461,6879.45,0.765,1.165,500,511,3308.03,0.33,0.686,550,561,530.248,0.25,1.051,650,661,-1691.97,0.073,0.393