File: 1 - Espectroscopia Raman/Data/dest 1.csv
comp(1),comp_corrected(1),raman_shift(1),vidro(ex 350 5-5),plastico(ex 350 5-5),comp(2),comp_corrected(2),raman_shift(2),vidro(ex 400 5-5),plastico(ex 400 5-5),comp(3),comp_corrected(3),raman_shift(3),vidro(ex 450 10-10),plastico(ex 450 10-10),comp(4),comp_corrected(4),raman_shift(4),vidro(ex 500 10-10),plastico(ex 500 10-10)
339,350,0,0.331037,0.803935,389,400,0,0.492782,0.62355,439,450,0,0.733876,2.36277,489,500,0,95.0055,638.6647
339.5,350.5,40.7581,0.331237,0.804626,389.5,400.5,31.211,0.494001,0.623744,439.5,450.5,24.664,0.734132,2.36905,489.5,500.5,19.98,95.6414,652.191
340,351,81.4001,0.331438,0.805316,390,401,62.3441,0.49522,0.623937,440,451,49.27322,0.734388,2.37533,490,501,39.9202,95.6439,661.3013
340.5,351.5,121.926,0.331639,0.806006,390.5,401.5,93.3998,0.496439,0.624131,440.5,451.5,73.828,0.734644,2.38161,490.5,501.5,59.8205,94.9309,665.5814
341,352,162.338,0.33184,0.806697,391,402,124.378,0.497657,0.624325,441,452,98.3284,0.7349,2.38789,491,502,79.6813,93.5399,664.9199
341.5,352.5,202.634,0.332041,0.807387,391.5,402.5,155.28,0.498876,0.624519,441.5,452.5,122.775,0.735156,2.39417,491.5,502.5,99.5025,91.5053,659.6066
342,353,242.817,0.332241,0.808077,392,403,186.104,0.500095,0.624712,442,453,147.167,0.735412,2.40045,492,503,119.284,88.8758,649.6213
342.5,353.5,282.885,0.332442,0.808767,392.5,403.5,216.853,0.501314,0.624906,442.5,453.5,171.506,0.735669,2.40673,492.5,503.5,139.027,85.7123,635.1823
343,354,322.841,0.332643,0.809458,393,404,247.525,0.502533,0.6251,443,454,195.791,0.735925,2.41301,493,504,158.73,82.0256,616.681
343.5,354.5,362.684,0.332844,0.810148,393.5,404.5,278.121,0.503752,0.625294,443.5,454.5,220.022,0.736181,2.41929,493.5,504.5,178.394,77.945,594.2302
344,355,402.414,0.333045,0.810838,394,405,308.642,0.50497,0.625487,444,455,244.2,0.736437,2.42557,494,505,198.02,73.509,568.2622
344.5,355.5,442.033,0.333245,0.811529,394.5,405.5,339.088,0.506189,0.625681,444.5,455.5,268.325,0.736693,2.43185,494.5,505.5,217.606,68.8057,539.4419
345,356,481.541,0.333446,0.812219,395,406,369.458,0.507408,0.625875,445,456,292.398,0.736949,2.43813,495,506,237.154,63.9189,507.9537
345.5,356.5,520.938,0.333647,0.812909,395.5,406.5,399.754,0.508627,0.626069,445.5,456.5,316.417,0.737205,2.44441,495.5,506.5,256.663,58.9406,474.4366
346,357,560.224,0.333848,0.813599,396,407,429.975,0.509846,0.626262,446,457,340.384,0.737461,2.45069,496,507,276.134,53.9129,439.2784
346.5,357.5,599.401,0.334048,0.81429,396.5,407.5,460.123,0.511065,0.626456,446.5,457.5,364.299,0.737717,2.45697,496.5,507.5,295.567,48.934,403.1889
347,358,638.468,0.334249,0.81498,397,408,490.196,0.512283,0.62665,447,458,388.161,0.737973,2.46325,497,508,314.961,44.0316,366.9912
347.5,358.5,677.426,0.33445,0.81567,397.5,408.5,520.196,0.513502,0.626844,447.5,458.5,411.971,0.738229,2.46953,497.5,508.5,334.317,39.274,331.0155
348,359,716.275,0.334651,0.816361,398,409,550.122,0.514721,0.627037,448,459,435.73,0.738485,2.47581,498,509,353.635,34.7077,295.7157
348.5,359.5,755.017,0.334852,0.817051,398.5,409.5,579.976,0.51594,0.627231,448.5,459.5,459.437,0.738742,2.48209,498.5,509.5,372.915,30.357,261.6831
349,360,793.651,0.335052,0.817741,399,410,609.756,0.517159,0.627425,449,460,483.092,0.738998,2.48837,499,510,392.157,26.2792,229.0294
349.5,360.5,832.178,0.335253,0.818431,399.5,410.5,639.464,0.518378,0.627619,449.5,460.5,506.696,0.739254,2.49465,499.5,510.5,411.361,22.5304,198.4217
350,361,870.598,0.335454,0.819122,400,411,669.1,0.519596,0.627812,450,461,530.248,0.73951,2.50093,500,511,430.528,73.3543,517.728
350.5,361.5,908.911,0.335655,0.819812,400.5,411.5,698.663,0.520815,0.628006,450.5,461.5,553.75,0.739766,2.50721,500.5,511.5,449.658,74.2777,524.364
351,362,947.119,0.335856,0.820502,401,412,728.155,0.522034,0.6282,451,462,577.201,0.740022,2.51349,501,512,468.75,75.2012,530.999
351.5,362.5,985.222,0.336056,0.821193,401.5,412.5,757.576,0.523253,0.628394,451.5,462.5,600.601,0.740278,2.51977,501.5,512.5,487.805,76.1246,537.635
352,363,1023.22,0.336257,0.821883,402,413,786.925,0.524472,0.628587,452,463,623.95,0.740534,2.52605,502,513,506.823,77.0481,544.271
352.5,363.5,1061.11,0.336458,0.822573,402.5,413.5,816.203,0.525691,0.628781,452.5,463.5,647.249,0.74079,2.53232,502.5,513.5,525.803,77.9715,550.907
353,364,1098.9,0.336659,0.823263,403,414,845.411,0.526909,0.628975,453,464,670.498,0.741046,2.5386,503,514,544.747,78.8949,557.543
353.5,364.5,1136.59,0.336859,0.823954,403.5,414.5,874.548,0.528128,0.629169,453.5,464.5,693.697,0.741302,2.54488,503.5,514.5,563.654,79.8184,564.178
354,365,1174.17,0.33706,0.824644,404,415,903.614,0.529347,0.629362,454,465,716.846,0.741558,2.55116,504,515,582.524,80.7418,570.814
354.5,365.5,1211.65,0.337261,0.825334,404.5,415.5,932.611,0.530566,0.629556,454.5,465.5,739.945,0.741814,2.55744,504.5,515.5,601.358,81.6652,577.45
355,366,1249.02,0.337462,0.826025,405,416,961.538,0.531785,0.62975,455,466,762.995,0.742071,2.56372,505,516,620.155,82.5887,584.086
355.5,366.5,1286.3,0.337663,0.826715,405.5,416.5,990.396,0.533004,0.629944,455.5,466.5,785.995,0.742327,2.57,505.5,516.5,638.916,83.5121,590.722
356,367,1323.47,0.337863,0.827405,406,417,1019.18,0.534222,0.630138,456,467,808.946,0.742583,2.57628,506,517,657.64,84.4355,597.357
356.5,367.5,1360.54,0.338064,0.828095,406.5,417.5,1047.9,0.535441,0.630331,456.5,467.5,831.848,0.742839,2.58256,506.5,517.5,676.329,85.359,603.993
357,368,1397.52,0.338265,0.828786,407,418,1076.56,0.53666,0.630525,457,468,854.701,0.743095,2.58884,507,518,694.981,86.2824,610.629
357.5,368.5,1434.39,0.338466,0.829476,407.5,418.5,1105.14,0.537879,0.630719,457.5,468.5,877.505,0.743351,2.59512,507.5,518.5,713.597,87.2058,617.265
358,369,1471.16,0.338666,0.830166,408,419,1133.65,0.539098,0.630913,458,469,900.261,0.743607,2.6014,508,519,732.177,88.1293,623.901
358.5,369.5,1507.83,0.338867,0.830857,408.5,419.5,1162.1,0.540317,0.631106,458.5,469.5,922.968,0.743863,2.60768,508.5,519.5,750.722,89.0527,630.536
359,370,1544.4,0.339068,0.831547,409,420,1190.48,0.541535,0.6313,459,470,945.626,0.744119,2.61396,509,520,769.231,89.9762,637.172
359.5,370.5,1580.88,0.339269,0.832237,409.5,420.5,1218.79,0.542754,0.631494,459.5,470.5,968.2371,0.744375,2.62024,509.5,520.5,787.704,90.8996,643.808
360,371,1617.25,0.33947,0.832927,410,421,1247.03,0.543973,0.631688,460,471,990.8,0.744631,2.62652,510,521,806.142,91.823,650.444
360.5,371.5,1653.53,0.33967,0.833618,410.5,421.5,1275.21,0.545192,0.631881,460.5,471.5,1013.31,0.744887,2.6328,510.5,521.5,824.545,92.7465,657.079
361,372,1689.71,0.339871,0.834308,411,422,1303.32,0.546411,0.632075,461,472,1035.78,0.745143,2.63908,511,522,842.912,93.6699,663.715
361.5,372.5,1725.79,0.340072,0.834998,411.5,422.5,1331.36,0.54763,0.632269,461.5,472.5,1058.2,0.7454,2.64536,511.5,522.5,861.244,94.5933,670.351
362,373,1761.78,0.340273,0.835689,412,423,1359.34,0.548848,0.632463,462,473,1080.57,0.745656,2.65164,512,523,879.541,95.5168,676.987
362.5,373.5,1797.67,0.340474,0.836379,412.5,423.5,1387.25,0.550067,0.632656,462.5,473.5,1102.9,0.745912,2.65792,512.5,523.5,897.803,96.4402,683.623
363,374,1833.46,0.340674,0.837069,413,424,1415.09,0.551286,0.63285,463,474,1125.18,0.746168,2.6642,513,524,916.031,97.3636,690.258
363.5,374.5,1869.16,0.340875,0.837759,413.5,424.5,1442.87,0.552505,0.633044,463.5,474.5,1147.41,0.746424,2.67048,513.5,524.5,934.223,98.2871,696.894
364,375,1904.76,0.341076,0.83845,414,425,1470.59,0.553724,0.633238,464,475,1169.59,0.74668,2.67676,514,525,952.381,99.2105,703.53
364.5,375.5,1940.27,0.341277,0.83914,414.5,425.5,1498.24,0.554943,0.633431,464.5,475.5,1191.73,0.746936,2.68304,514.5,525.5,970.504,100.134,710.166
365,376,1975.68,0.341477,0.83983,415,426,1525.82,0.556161,0.633625,465,476,1213.82,0.747192,2.68932,515,526,988.593,101.057,716.802
365.5,376.5,2011,0.341678,0.840521,415.5,426.5,1553.34,0.55738,0.633819,465.5,476.5,1235.86,0.747448,2.6956,515.5,526.5,1006.65,101.981,723.437
366,377,2046.23,0.341879,0.841211,416,427,1580.8,0.558599,0.634013,466,477,1257.86,0.747704,2.70188,516,527,1024.67,102.904,730.073
366.5,377.5,2081.36,0.34208,0.841901,416.5,427.5,1608.19,0.559818,0.634206,466.5,477.5,1279.81,0.74796,2.70816,516.5,527.5,1042.65,103.828,736.709
367,378,2116.4,0.342281,0.842591,417,428,1635.51,0.561037,0.6344,467,478,1301.72,0.748216,2.71444,517,528,1060.61,104.751,743.345
367.5,378.5,2151.35,0.342481,0.843282,417.5,428.5,1662.78,0.562256,0.634594,467.5,478.5,1323.58,0.748472,2.72072,517.5,528.5,1078.52,105.675,749.981
368,379,2186.2,0.342682,0.843972,418,429,1689.98,0.563474,0.634788,468,479,1345.4,0.748729,2.727,518,529,1096.41,106.598,756.616
368.5,379.5,2220.97,0.342883,0.844662,418.5,429.5,1717.11,0.564693,0.634981,468.5,479.5,1367.16,0.748985,2.73328,518.5,529.5,1114.26,107.521,763.252
369,380,2255.64,0.343084,0.845353,419,430,1744.19,0.565912,0.635175,469,480,1388.89,0.749241,2.73956,519,530,1132.08,108.445,769.888
369.5,380.5,2290.22,0.343285,0.846043,419.5,430.5,1771.2,0.567131,0.635369,469.5,480.5,1410.57,0.749497,2.74584,519.5,530.5,1149.86,109.368,776.524
370,381,2324.71,0.343485,0.846733,420,431,1798.14,0.56835,0.635563,470,481,1432.2,0.749753,2.75212,520,531,1167.61,110.292,783.16
370.5,381.5,2359.11,0.343686,0.847423,420.5,431.5,1825.03,0.569569,0.635756,470.5,481.5,1453.79,0.750009,2.7584,520.5,531.5,1185.32,111.215,789.795
371,382,2393.42,0.343887,0.848114,421,432,1851.85,0.570787,0.63595,471,482,1475.33,0.750265,2.76468,521,532,1203.01,112.139,796.431
371.5,382.5,2427.64,0.344088,0.848804,421.5,432.5,1878.61,0.572006,0.636144,471.5,482.5,1496.83,0.750521,2.77096,521.5,532.5,1220.66,113.062,803.067
372,383,2461.77,0.344288,0.849494,422,433,1905.31,0.573225,0.636338,472,483,1518.29,0.750777,2.77724,522,533,1238.27,113.985,809.703
372.5,383.5,2495.81,0.344489,0.850184,422.5,433.5,1931.95,0.574444,0.636531,472.5,483.5,1539.7,0.751033,2.78352,522.5,533.5,1255.86,114.909,816.339
373,384,2529.76,0.34469,0.850875,423,434,1958.53,0.575663,0.636725,473,484,1561.07,0.751289,2.7898,523,534,1273.41,115.832,822.974
373.5,384.5,2563.63,0.344891,0.851565,423.5,434.5,1985.04,0.576882,0.636919,473.5,484.5,1582.39,0.751545,2.79608,523.5,534.5,1290.93,116.756,829.61
374,385,2597.4,0.345092,0.852255,424,435,2011.49,0.5781,0.637113,474,485,1603.67,0.751801,2.80236,524,535,1308.41,117.679,836.246
374.5,385.5,2631.09,0.345292,0.852946,424.5,435.5,2037.89,0.579319,0.637307,474.5,485.5,1624.9,0.752058,2.80864,524.5,535.5,1325.86,118.603,842.882
375,386,2664.69,0.345493,0.853636,425,436,2064.22,0.580538,0.6375,475,486,1646.09,0.752314,2.81492,525,536,1343.28,119.526,849.518
375.5,386.5,2698.21,0.345694,0.854326,425.5,436.5,2090.49,0.581757,0.637694,475.5,486.5,1667.24,0.75257,2.8212,525.5,536.5,1360.67,120.45,856.153
376,387,2731.64,0.345895,0.855016,426,437,2116.7,0.582976,0.637888,476,487,1688.34,0.752826,2.82748,526,537,1378.03,121.373,862.789
376.5,387.5,2764.98,0.346095,0.855707,426.5,437.5,2142.86,0.584195,0.638082,476.5,487.5,1709.4,0.753082,2.83376,526.5,537.5,1395.35,122.296,869.425
377,388,2798.23,0.346296,0.856397,427,438,2168.95,0.585413,0.638275,477,488,1730.42,0.753338,2.84004,527,538,1412.64,123.22,876.061
377.5,388.5,2831.4,0.346497,0.857087,427.5,438.5,2194.98,0.586632,0.638469,477.5,488.5,1751.39,0.753594,2.84632,527.5,538.5,1429.9,124.143,882.696
378,389,2864.49,0.346698,0.857778,428,439,2220.96,0.587851,0.638663,478,489,1772.32,0.75385,2.8526,528,539,1447.12,125.067,889.332
378.5,389.5,2897.49,0.346899,0.858468,428.5,439.5,2246.87,0.58907,0.638857,478.5,489.5,1793.21,0.754106,2.85888,528.5,539.5,1464.32,125.99,895.968
379,390,2930.4,0.347099,0.859158,429,440,2272.73,0.590289,0.63905,479,490,1814.06,0.754362,2.86516,529,540,1481.48,126.914,902.604
379.5,390.5,2963.23,0.3473,0.859848,429.5,440.5,2298.52,0.591508,0.639244,479.5,490.5,1834.86,0.754618,2.87144,529.5,540.5,1498.61,127.837,909.24
380,391,2995.98,0.347501,0.860539,430,441,2324.26,0.592726,0.639438,480,491,1855.62,0.754874,2.87772,530,541,1515.71,128.76,915.875
380.5,391.5,3028.64,0.347702,0.861229,430.5,441.5,2349.94,0.593945,0.639632,480.5,491.5,1876.34,0.75513,2.884,530.5,541.5,1532.78,129.684,922.511
381,392,3061.22,0.347903,0.861919,431,442,2375.57,0.595164,0.639825,481,492,1897.02,0.755387,2.89028,531,542,1549.82,130.607,929.147
381.5,392.5,3093.72,0.348103,0.86261,431.5,442.5,2401.13,0.596383,0.640019,481.5,492.5,1917.65,0.755643,2.89656,531.5,542.5,1566.82,131.531,935.783
382,393,3126.14,0.348304,0.8633,432,443,2426.64,0.597602,0.640213,482,493,1938.25,0.755899,2.90284,532,543,1583.79,132.454,942.419
382.5,393.5,3158.47,0.348505,0.86399,432.5,443.5,2452.09,0.598821,0.640407,482.5,493.5,1958.8,0.756155,2.90912,532.5,543.5,1600.74,133.378,949.054
383,394,3190.72,0.348706,0.86468,433,444,2477.48,0.600039,0.6406,483,494,1979.31,0.756411,2.9154,533,544,1617.65,134.301,955.69
383.5,394.5,3222.89,0.348906,0.865371,433.5,444.5,2502.81,0.601258,0.640794,483.5,494.5,1999.78,0.756667,2.92168,533.5,544.5,1634.53,135.225,962.326
384,395,3254.97,0.349107,0.866061,434,445,2528.09,0.602477,0.640988,484,495,2020.2,0.756923,2.92796,534,545,1651.38,136.148,968.962
384.5,395.5,3286.98,0.349308,0.866751,434.5,445.5,2553.31,0.603696,0.641182,484.5,495.5,2040.59,0.757179,2.93424,534.5,545.5,1668.19,137.071,975.598
385,396,3318.9,0.349509,0.867442,435,446,2578.48,0.604915,0.641375,485,496,2060.93,0.757435,2.94052,535,546,1684.98,137.995,982.233
385.5,396.5,3350.75,0.34971,0.868132,435.5,446.5,2603.58,0.606134,0.641569,485.5,496.5,2081.24,0.757691,2.9468,535.5,546.5,1701.74,138.918,988.869
386,397,3382.51,0.34991,0.868822,436,447,2628.64,0.607352,0.641763,486,497,2101.5,0.757947,2.95308,536,547,1718.46,139.842,995.505
386.5,397.5,3414.2,0.350111,0.869512,436.5,447.5,2653.63,0.608571,0.641957,486.5,497.5,2121.72,0.758203,2.95936,536.5,547.5,1735.16,140.765,1002.14
387,398,3445.8,0.350312,0.870203,437,448,2678.57,0.60979,0.64215,487,498,2141.9,0.75846,2.96564,537,548,1751.82,141.689,1008.78
387.5,398.5,3477.33,0.350513,0.870893,437.5,448.5,2703.46,0.611009,0.642344,487.5,498.5,2162.04,0.758716,2.97192,537.5,548.5,1768.46,142.612,1015.41
388,399,3508.77,0.350714,0.871583,438,449,2728.29,0.612228,0.642538,488,499,2182.14,0.758972,2.9782,538,549,1785.06,143.535,1022.05
388.5,399.5,3540.14,0.350914,0.872274,438.5,449.5,2753.06,0.613447,0.642732,488.5,499.5,2202.2,0.759228,2.98448,538.5,549.5,1801.64,144.459,1028.68
389,400,3571.43,0.351115,0.872964,439,450,2777.78,0.614665,0.642925,489,500,2222.22,0.759484,2.99076,539,550,1818.18,145.382,1035.32
389.5,400.5,3602.64,0.351316,0.873654,439.5,450.5,2802.44,0.615884,0.643119,489.5,500.5,2242.2,0.75974,2.99704,539.5,550.5,1834.7,146.306,1041.96
390,401,3633.77,0.351517,0.874344,440,451,2827.05,0.617103,0.643313,490,501,2262.14,0.759996,3.00332,540,551,1851.18,147.229,1048.59
390.5,401.5,3664.83,0.351717,0.875035,440.5,451.5,2851.61,0.618322,0.643507,490.5,501.5,2282.04,0.760252,3.0096,540.5,551.5,1867.63,148.153,1055.23
391,402,3695.81,0.351918,0.875725,441,452,2876.11,0.619541,0.6437,491,502,2301.9,0.760508,3.01588,541,552,1884.06,149.076,1061.86
391.5,402.5,3726.71,0.352119,0.876415,441.5,452.5,2900.55,0.62076,0.643894,491.5,502.5,2321.72,0.760764,3.02215,541.5,552.5,1900.45,149.999,1068.5
392,403,3757.53,0.35232,0.877106,442,453,2924.94,0.621978,0.644088,492,503,2341.51,0.76102,3.02843,542,553,1916.82,150.923,1075.13
392.5,403.5,3788.28,0.352521,0.877796,442.5,453.5,2949.28,0.623197,0.644282,492.5,503.5,2361.25,0.761276,3.03471,542.5,553.5,1933.15,151.846,1081.77
393,404,3818.95,0.352721,0.878486,443,454,2973.57,0.624416,0.644476,493,504,2380.95,0.761532,3.04099,543,554,1949.46,152.77,1088.41
393.5,404.5,3849.55,0.352922,0.879176,443.5,454.5,2997.8,0.625635,0.644669,493.5,504.5,2400.62,0.761789,3.04727,543.5,554.5,1965.73,153.693,1095.04
394,405,3880.07,0.353123,0.879867,444,455,3021.98,0.626854,0.644863,494,505,2420.24,0.762045,3.05355,544,555,1981.98,154.617,1101.68
394.5,405.5,3910.52,0.353324,0.880557,444.5,455.5,3046.1,0.628073,0.645057,494.5,505.5,2439.83,0.762301,3.05983,544.5,555.5,1998.2,155.54,1108.31
395,406,3940.89,0.353524,0.881247,445,456,3070.18,0.629291,0.645251,495,506,2459.38,0.762557,3.06611,545,556,2014.39,156.464,1114.95
395.5,406.5,3971.18,0.353725,0.881938,445.5,456.5,3094.19,0.63051,0.645444,495.5,506.5,2478.89,0.762813,3.07239,545.5,556.5,2030.55,157.387,1121.59
396,407,4001.4,0.353926,0.882628,446,457,3118.16,0.631729,0.645638,496,507,2498.36,0.763069,3.07867,546,557,2046.68,158.31,1128.22
396.5,407.5,4031.55,0.354127,0.883318,446.5,457.5,3142.08,0.632948,0.645832,496.5,507.5,2517.79,0.763325,3.08495,546.5,557.5,2062.78,159.234,1134.86
397,408,4061.62,0.354328,0.884008,447,458,3165.94,0.634167,0.646026,497,508,2537.18,0.763581,3.09123,547,558,2078.85,160.157,1141.49
397.5,408.5,4091.62,0.354528,0.884699,447.5,458.5,3189.75,0.635386,0.646219,497.5,508.5,2556.54,0.763837,3.09751,547.5,558.5,2094.9,161.081,1148.13
398,409,4121.55,0.354729,0.885389,448,459,3213.51,0.636604,0.646413,498,509,2575.86,0.764093,3.10379,548,559,2110.91,162.004,1154.76
398.5,409.5,4151.4,0.35493,0.886079,448.5,459.5,3237.21,0.637823,0.646607,498.5,509.5,2595.14,0.764349,3.11007,548.5,559.5,2126.9,162.928,1161.4
399,410,4181.18,0.355131,0.88677,449,460,3260.87,0.639042,0.646801,499,510,2614.38,0.764605,3.11635,549,560,2142.86,163.851,1168.04
399.5,410.5,4210.89,0.355332,0.88746,449.5,460.5,3284.47,0.640261,0.646994,499.5,510.5,2633.58,0.764861,3.12263,549.5,560.5,2158.79,164.774,1174.67
400,411,4240.53,0.355532,0.88815,450,461,3308.03,0.64148,0.647188,500,511,2652.75,0.765118,3.12891,550,561,2174.69,165.698,1181.31
400.5,411.5,4270.09,0.355733,0.88884,450.5,461.5,3331.53,0.642699,0.647382,500.5,511.5,2671.88,0.765374,3.13519,550.5,561.5,2190.56,166.621,1187.94
401,412,4299.58,0.355934,0.889531,451,462,3354.98,0.643917,0.647576,501,512,2690.97,0.76563,3.14147,551,562,2206.41,167.545,1194.58
401.5,412.5,4329,0.356135,0.890221,451.5,462.5,3378.38,0.645136,0.647769,501.5,512.5,2710.03,0.765886,3.14775,551.5,562.5,2222.22,168.468,1201.21
402,413,4358.35,0.356335,0.890911,452,463,3401.73,0.646355,0.647963,502,513,2729.04,0.766142,3.15403,552,563,2238.01,169.392,1207.85
402.5,413.5,4387.63,0.356536,0.891602,452.5,463.5,3425.03,0.647574,0.648157,502.5,513.5,2748.03,0.766398,3.16031,552.5,563.5,2253.77,170.315,1214.49
403,414,4416.84,0.356737,0.892292,453,464,3448.28,0.648793,0.648351,503,514,2766.97,0.766654,3.16659,553,564,2269.5,171.239,1221.12
403.5,414.5,4445.98,0.356938,0.892982,453.5,464.5,3471.47,0.650012,0.648544,503.5,514.5,2785.88,0.76691,3.17287,553.5,564.5,2285.21,172.162,1227.76
404,415,4475.04,0.357139,0.893672,454,465,3494.62,0.65123,0.648738,504,515,2804.75,0.767166,3.17915,554,565,2300.88,173.085,1234.39
404.5,415.5,4504.04,0.357339,0.894363,454.5,465.5,3517.72,0.652449,0.648932,504.5,515.5,2823.58,0.767422,3.18543,554.5,565.5,2316.53,174.009,1241.03
405,416,4532.97,0.35754,0.895053,455,466,3540.77,0.653668,0.649126,505,516,2842.38,0.767678,3.19171,555,566,2332.16,174.932,1247.67
405.5,416.5,4561.82,0.357741,0.895743,455.5,466.5,3563.77,0.654887,0.649319,505.5,516.5,2861.14,0.767934,3.19799,555.5,566.5,2347.75,175.856,1254.3
406,417,4590.61,0.357942,0.896434,456,467,3586.72,0.656106,0.649513,506,517,2879.86,0.76819,3.20427,556,567,2363.32,176.779,1260.94
406.5,417.5,4619.33,0.358142,0.897124,456.5,467.5,3609.63,0.657325,0.649707,506.5,517.5,2898.55,0.768447,3.21055,556.5,567.5,2378.85,177.703,1267.57
407,418,4647.98,0.358343,0.897814,457,468,3632.48,0.658543,0.649901,507,518,2917.2,0.768703,3.21683,557,568,2394.37,178.626,1274.21
407.5,418.5,4676.57,0.358544,0.898504,457.5,468.5,3655.28,0.659762,0.650094,507.5,518.5,2935.82,0.768959,3.22311,557.5,568.5,2409.85,179.549,1280.84
408,419,4705.08,0.358745,0.899195,458,469,3678.04,0.660981,0.650288,508,519,2954.4,0.769215,3.22939,558,569,2425.31,180.473,1287.48
408.5,419.5,4733.53,0.358946,0.899885,458.5,469.5,3700.75,0.6622,0.650482,508.5,519.5,2972.94,0.769471,3.23567,558.5,569.5,2440.74,181.396,1294.12
409,420,4761.9,0.359146,0.900575,459,470,3723.4,0.663419,0.650676,509,520,2991.45,0.769727,3.24195,559,570,2456.14,182.32,1300.75
409.5,420.5,4790.22,0.359347,0.901265,459.5,470.5,3746.01,0.664638,0.65087,509.5,520.5,3009.93,0.769983,3.24823,559.5,570.5,2471.52,183.243,1307.39
410,421,4818.46,0.359548,0.901956,460,471,3768.58,0.665856,0.651063,510,521,3028.36,0.770239,3.25451,560,571,2486.87,184.167,1314.02
410.5,421.5,4846.64,0.359749,0.902646,460.5,471.5,3791.09,0.667075,0.651257,510.5,521.5,3046.77,0.770495,3.26079,560.5,571.5,2502.19,185.09,1320.66
411,422,4874.75,0.35995,0.903336,461,472,3813.56,0.668294,0.651451,511,522,3065.13,0.770751,3.26707,561,572,2517.48,186.013,1327.29
411.5,422.5,4902.79,0.36015,0.904027,461.5,472.5,3835.98,0.669513,0.651645,511.5,522.5,3083.47,0.771007,3.27335,561.5,572.5,2532.75,186.937,1333.93
412,423,4930.77,0.360351,0.904717,462,473,3858.35,0.670732,0.651838,512,523,3101.76,0.771263,3.27963,562,573,2547.99,187.86,1340.57
412.5,423.5,4958.68,0.360552,0.905407,462.5,473.5,3880.68,0.671951,0.652032,512.5,523.5,3120.03,0.771519,3.28591,562.5,573.5,2563.21,188.784,1347.2
413,424,4986.52,0.360753,0.906097,463,474,3902.95,0.673169,0.652226,513,524,3138.25,0.771776,3.29219,563,574,2578.4,189.707,1353.84
413.5,424.5,5014.3,0.360953,0.906788,463.5,474.5,3925.18,0.674388,0.65242,513.5,524.5,3156.45,0.772032,3.29847,563.5,574.5,2593.56,190.631,1360.47
414,425,5042.02,0.361154,0.907478,464,475,3947.37,0.675607,0.652613,514,525,3174.6,0.772288,3.30475,564,575,2608.7,191.554,1367.11
414.5,425.5,5069.67,0.361355,0.908168,464.5,475.5,3969.51,0.676826,0.652807,514.5,525.5,3192.73,0.772544,3.31103,564.5,575.5,2623.81,192.478,1373.75
415,426,5097.25,0.361556,0.908859,465,476,3991.6,0.678045,0.653001,515,526,3210.82,0.7728,3.31731,565,576,2638.89,193.401,1380.38
415.5,426.5,5124.77,0.361757,0.909549,465.5,476.5,4013.64,0.679264,0.653195,515.5,526.5,3228.87,0.773056,3.32359,565.5,576.5,2653.95,194.324,1387.02
416,427,5152.22,0.361957,0.910239,466,477,4035.64,0.680482,0.653388,516,527,3246.89,0.773312,3.32987,566,577,2668.98,195.248,1393.65
416.5,427.5,5179.62,0.362158,0.910929,466.5,477.5,4057.59,0.681701,0.653582,516.5,527.5,3264.88,0.773568,3.33615,566.5,577.5,2683.98,196.171,1400.29
417,428,5206.94,0.362359,0.91162,467,478,4079.5,0.68292,0.653776,517,528,3282.83,0.773824,3.34243,567,578,2698.96,197.095,1406.92
417.5,428.5,5234.21,0.36256,0.91231,467.5,478.5,4101.36,0.684139,0.65397,517.5,528.5,3300.75,0.77408,3.34871,567.5,578.5,2713.92,198.018,1413.56
418,429,5261.41,0.362761,0.913,468,479,4123.17,0.685358,0.654163,518,529,3318.63,0.774336,3.35499,568,579,2728.84,198.942,1420.2
418.5,429.5,5288.54,0.362961,0.913691,468.5,479.5,4144.94,0.686577,0.654357,518.5,529.5,3336.48,0.774592,3.36127,568.5,579.5,2743.74,199.865,1426.83
419,430,5315.61,0.363162,0.914381,469,480,4166.67,0.687795,0.654551,519,530,3354.3,0.774849,3.36755,569,580,2758.62,200.788,1433.47
419.5,430.5,5342.62,0.363363,0.915071,469.5,480.5,4188.35,0.689014,0.654745,519.5,530.5,3372.08,0.775105,3.37383,569.5,580.5,2773.47,201.712,1440.1
420,431,5369.57,0.363564,0.915761,470,481,4209.98,0.690233,0.654938,520,531,3389.83,0.775361,3.38011,570,581,2788.3,202.635,1446.74
420.5,431.5,5396.46,0.363764,0.916452,470.5,481.5,4231.57,0.691452,0.655132,520.5,531.5,3407.55,0.775617,3.38639,570.5,581.5,2803.1,203.559,1453.37
421,432,5423.28,0.363965,0.917142,471,482,4253.11,0.692671,0.655326,521,532,3425.23,0.775873,3.39267,571,582,2817.87,204.482,1460.01
421.5,432.5,5450.04,0.364166,0.917832,471.5,482.5,4274.61,0.69389,0.65552,521.5,532.5,3442.88,0.776129,3.39895,571.5,582.5,2832.62,205.406,1466.65
422,433,5476.74,0.364367,0.918523,472,483,4296.07,0.695108,0.655713,522,533,3460.5,0.776385,3.40523,572,583,2847.34,206.329,1473.28
422.5,433.5,5503.38,0.364568,0.919213,472.5,483.5,4317.48,0.696327,0.655907,522.5,533.5,3478.08,0.776641,3.41151,572.5,583.5,2862.04,207.253,1479.92
423,434,5529.95,0.364768,0.919903,473,484,4338.84,0.697546,0.656101,523,534,3495.63,0.776897,3.41779,573,584,2876.71,208.176,1486.55
423.5,434.5,5556.47,0.364969,0.920593,473.5,484.5,4360.17,0.698765,0.656295,523.5,534.5,3513.15,0.777153,3.42407,573.5,584.5,2891.36,209.099,1493.19
424,435,5582.92,0.36517,0.921284,474,485,4381.44,0.699984,0.656488,524,535,3530.63,0.777409,3.43035,574,585,2905.98,210.023,1499.83
424.5,435.5,5609.32,0.365371,0.921974,474.5,485.5,4402.68,0.701203,0.656682,524.5,535.5,3548.09,0.777665,3.43663,574.5,585.5,2920.58,210.946,1506.46
425,436,5635.65,0.365571,0.922664,475,486,4423.87,0.702421,0.656876,525,536,3565.51,0.777921,3.44291,575,586,2935.15,211.87,1513.1
425.5,436.5,5661.92,0.365772,0.923355,475.5,486.5,4445.02,0.70364,0.65707,525.5,536.5,3582.89,0.778178,3.44919,575.5,586.5,2949.7,212.793,1519.73
426,437,5688.13,0.365973,0.924045,476,487,4466.12,0.704859,0.657263,526,537,3600.25,0.778434,3.45547,576,587,2964.22,213.717,1526.37
426.5,437.5,5714.29,0.366174,0.924735,476.5,487.5,4487.18,0.706078,0.657457,526.5,537.5,3617.57,0.77869,3.46175,576.5,587.5,2978.72,214.64,1533
427,438,5740.38,0.366375,0.925425,477,488,4508.2,0.707297,0.657651,527,538,3634.86,0.778946,3.46803,577,588,2993.2,215.563,1539.64
427.5,438.5,5766.41,0.366575,0.926116,477.5,488.5,4529.17,0.708516,0.657845,527.5,538.5,3652.12,0.779202,3.47431,577.5,588.5,3007.65,216.487,1546.28
428,439,5792.39,0.366776,0.926806,478,489,4550.1,0.709734,0.658039,528,539,3669.35,0.779458,3.48059,578,589,3022.07,217.41,1552.91
428.5,439.5,5818.3,0.366977,0.927496,478.5,489.5,4570.99,0.710953,0.658232,528.5,539.5,3686.54,0.779714,3.48687,578.5,589.5,3036.47,218.334,1559.55
429,440,5844.16,0.367178,0.928187,479,490,4591.84,0.712172,0.658426,529,540,3703.7,0.77997,3.49315,579,590,3050.85,219.257,1566.18
429.5,440.5,5869.95,0.367379,0.928877,479.5,490.5,4612.64,0.713391,0.65862,529.5,540.5,3720.83,0.780226,3.49943,579.5,590.5,3065.2,220.181,1572.82
430,441,5895.69,0.367579,0.929567,480,491,4633.4,0.71461,0.658814,530,541,3737.93,0.780482,3.5057,580,591,3079.53,221.104,1579.45
430.5,441.5,5921.37,0.36778,0.930257,480.5,491.5,4654.12,0.715829,0.659007,530.5,541.5,3755,0.780738,3.51198,580.5,591.5,3093.83,222.027,1586.09
431,442,5946.99,0.367981,0.930948,481,492,4674.8,0.717047,0.659201,531,542,3772.04,0.780994,3.51826,581,592,3108.11,222.951,1592.73
431.5,442.5,5972.56,0.368182,0.931638,481.5,492.5,4695.43,0.718266,0.659395,531.5,542.5,3789.04,0.78125,3.52454,581.5,592.5,3122.36,223.874,1599.36
432,443,5998.07,0.368382,0.932328,482,493,4716.02,0.719485,0.659589,532,543,3806.02,0.781507,3.53082,582,593,3136.59,224.798,1606
432.5,443.5,6023.51,0.368583,0.933019,482.5,493.5,4736.58,0.720704,0.659782,532.5,543.5,3822.96,0.781763,3.5371,582.5,593.5,3150.8,225.721,1612.63
433,444,6048.91,0.368784,0.933709,483,494,4757.09,0.721923,0.659976,533,544,3839.87,0.782019,3.54338,583,594,3164.98,226.645,1619.27
433.5,444.5,6074.24,0.368985,0.934399,483.5,494.5,4777.55,0.723142,0.66017,533.5,544.5,3856.75,0.782275,3.54966,583.5,594.5,3179.14,227.568,1625.91
434,445,6099.52,0.369186,0.935089,484,495,4797.98,0.72436,0.660364,534,545,3873.6,0.782531,3.55594,584,595,3193.28,228.492,1632.54
434.5,445.5,6124.74,0.369386,0.93578,484.5,495.5,4818.37,0.725579,0.660557,534.5,545.5,3890.42,0.782787,3.56222,584.5,595.5,3207.39,229.415,1639.18
435,446,6149.9,0.369587,0.93647,485,496,4838.71,0.726798,0.660751,535,546,3907.2,0.783043,3.5685,585,596,3221.48,230.338,1645.81
435.5,446.5,6175.01,0.369788,0.93716,485.5,496.5,4859.01,0.728017,0.660945,535.5,546.5,3923.96,0.783299,3.57478,585.5,596.5,3235.54,231.262,1652.45
436,447,6200.06,0.369989,0.937851,486,497,4879.28,0.729236,0.661139,536,547,3940.69,0.783555,3.58106,586,597,3249.58,232.185,1659.08
436.5,447.5,6225.06,0.37019,0.938541,486.5,497.5,4899.5,0.730455,0.661332,536.5,547.5,3957.38,0.783811,3.58734,586.5,597.5,3263.6,233.109,1665.72
437,448,6250,0.37039,0.939231,487,498,4919.68,0.731673,0.661526,537,548,3974.05,0.784067,3.59362,587,598,3277.59,234.032,1672.36
437.5,448.5,6274.88,0.370591,0.939921,487.5,498.5,4939.82,0.732892,0.66172,537.5,548.5,3990.68,0.784323,3.5999,587.5,598.5,3291.56,234.956,1678.99
438,449,6299.71,0.370792,0.940612,488,499,4959.92,0.734111,0.661914,538,549,4007.29,0.784579,3.60618,588,599,3305.51,235.879,1685.63
438.5,449.5,6324.49,0.370993,0.941302,488.5,499.5,4979.98,0.73533,0.662107,538.5,549.5,4023.86,0.784836,3.61246,588.5,599.5,3319.43,236.802,1692.26
439,450,6349.21,0.371193,0.941992,489,500,5000,0.736549,0.662301,539,550,4040.4,0.785092,3.61874,589,600,3333.33,237.726,1698.9
439.5,450.5,6373.87,0.371394,0.942683,489.5,500.5,5019.98,0.737768,0.662495,539.5,550.5,4056.92,0.785348,3.62502,589.5,600.5,3347.21,238.649,1705.53
440,451,6398.48,0.371595,0.943373,490,501,5039.92,0.738986,0.662689,540,551,4073.4,0.785604,3.6313,590,601,3361.06,239.573,1712.17
440.5,451.5,6423.03,0.371796,0.944063,490.5,501.5,5059.82,0.740205,0.662882,540.5,551.5,4089.86,0.78586,3.63758,590.5,601.5,3374.9,240.496,1718.81
441,452,6447.53,0.371997,0.944753,491,502,5079.68,0.741424,0.663076,541,552,4106.28,0.786116,3.64386,591,602,3388.7,241.42,1725.44
441.5,452.5,6471.98,0.372197,0.945444,491.5,502.5,5099.5,0.742643,0.66327,541.5,552.5,4122.67,0.786372,3.65014,591.5,602.5,3402.49,242.343,1732.08
442,453,6496.37,0.372398,0.946134,492,503,5119.28,0.743862,0.663464,542,553,4139.04,0.786628,3.65642,592,603,3416.25,243.267,1738.71
442.5,453.5,6520.71,0.372599,0.946824,492.5,503.5,5139.03,0.745081,0.663657,542.5,553.5,4155.37,0.786884,3.6627,592.5,603.5,3429.99,244.19,1745.35
443,454,6545,0.3728,0.947515,493,504,5158.73,0.746299,0.663851,543,554,4171.68,0.78714,3.66898,593,604,3443.71,245.113,1751.99
443.5,454.5,6569.23,0.373,0.948205,493.5,504.5,5178.39,0.747518,0.664045,543.5,554.5,4187.96,0.787396,3.67526,593.5,604.5,3457.4,246.037,1758.62
444,455,6593.41,0.373201,0.948895,494,505,5198.02,0.748737,0.664239,544,555,4204.2,0.787652,3.68154,594,605,3471.07,246.96,1765.26
444.5,455.5,6617.53,0.373402,0.949585,494.5,505.5,5217.61,0.749956,0.664432,544.5,555.5,4220.42,0.787908,3.68782,594.5,605.5,3484.72,247.884,1771.89
445,456,6641.6,0.373603,0.950276,495,506,5237.15,0.751175,0.664626,545,556,4236.61,0.788165,3.6941,595,606,3498.35,248.807,1778.53
445.5,456.5,6665.62,0.373804,0.950966,495.5,506.5,5256.66,0.752394,0.66482,545.5,556.5,4252.77,0.788421,3.70038,595.5,606.5,3511.95,249.731,1785.16
446,457,6689.59,0.374004,0.951656,496,507,5276.13,0.753612,0.665014,546,557,4268.9,0.788677,3.70666,596,607,3525.54,250.654,1791.8
446.5,457.5,6713.51,0.374205,0.952346,496.5,507.5,5295.57,0.754831,0.665208,546.5,557.5,4285,0.788933,3.71294,596.5,607.5,3539.09,251.577,1798.44
447,458,6737.37,0.374406,0.953037,497,508,5314.96,0.75605,0.665401,547,558,4301.08,0.789189,3.71922,597,608,3552.63,252.501,1805.07
447.5,458.5,6761.18,0.374607,0.953727,497.5,508.5,5334.32,0.757269,0.665595,547.5,558.5,4317.12,0.789445,3.7255,597.5,608.5,3566.15,253.424,1811.71
448,459,6784.94,0.374808,0.954417,498,509,5353.63,0.758488,0.665789,548,559,4333.13,0.789701,3.73178,598,609,3579.64,254.348,1818.34
448.5,459.5,6808.64,0.375008,0.955108,498.5,509.5,5372.91,0.759707,0.665983,548.5,559.5,4349.12,0.789957,3.73806,598.5,609.5,3593.11,255.271,1824.98
449,460,6832.3,0.375209,0.955798,499,510,5392.16,0.760925,0.666176,549,560,4365.08,0.790213,3.74434,599,610,3606.56,256.195,1831.62
449.5,460.5,6855.9,0.37541,0.956488,499.5,510.5,5411.36,0.762144,0.66637,549.5,560.5,4381.01,0.790469,3.75062,599.5,610.5,3619.98,257.118,1838.25
450,461,6879.45,0.375611,0.957178,500,511,5430.53,0.763363,0.666564,550,561,4396.91,0.790725,3.7569,600,611,3633.39,258.041,1844.89
450.5,461.5,6902.96,0.375811,0.957869,500.5,511.5,5449.66,0.764582,0.666758,550.5,561.5,4412.78,0.790981,3.76318,600.5,611.5,3646.77,258.965,1851.52
451,462,6926.41,0.376012,0.958559,501,512,5468.75,0.765801,0.666951,551,562,4428.63,0.791237,3.76946,601,612,3660.13,259.888,1858.16
451.5,462.5,6949.81,0.376213,0.959249,501.5,512.5,5487.8,0.76702,0.667145,551.5,562.5,4444.44,0.791494,3.77574,601.5,612.5,3673.47,260.812,1864.79
452,463,6973.16,0.376414,0.95994,502,513,5506.82,0.768238,0.667339,552,563,4460.23,0.79175,3.78202,602,613,3686.79,261.735,1871.43
452.5,463.5,6996.46,0.376615,0.96063,502.5,513.5,5525.8,0.769457,0.667533,552.5,563.5,4475.99,0.792006,3.7883,602.5,613.5,3700.08,262.659,1878.07
453,464,7019.7,0.376815,0.96132,503,514,5544.75,0.770676,0.667726,553,564,4491.73,0.792262,3.79458,603,614,3713.36,263.582,1884.7
453.5,464.5,7042.9,0.377016,0.96201,503.5,514.5,5563.65,0.771895,0.66792,553.5,564.5,4507.43,0.792518,3.80086,603.5,614.5,3726.61,264.506,1891.34
454,465,7066.05,0.377217,0.962701,504,515,5582.52,0.773114,0.668114,554,565,4523.11,0.792774,3.80714,604,615,3739.84,265.429,1897.97
,,,,,,,,,,,,,,,604.5,615.5,3753.05,266.352,1904.61
,,,,,,,,,,,,,,,605,616,3766.23,267.276,1911.24
,,,,,,,,,,,,,,,605.5,616.5,3779.4,268.199,1917.88
,,,,,,,,,,,,,,,606,617,3792.54,269.123,1924.52
,,,,,,,,,,,,,,,606.5,617.5,3805.67,270.046,1931.15
,,,,,,,,,,,,,,,607,618,3818.77,270.97,1937.79
,,,,,,,,,,,,,,,607.5,618.5,3831.85,271.893,1944.42
,,,,,,,,,,,,,,,608,619,3844.91,272.816,1951.06
,,,,,,,,,,,,,,,608.5,619.5,3857.95,273.74,1957.7
,,,,,,,,,,,,,,,609,620,3870.97,274.663,1964.33
,,,,,,,,,,,,,,,609.5,620.5,3883.96,275.587,1970.97
,,,,,,,,,,,,,,,610,621,3896.94,276.51,1977.6
,,,,,,,,,,,,,,,610.5,621.5,3909.9,277.434,1984.24
,,,,,,,,,,,,,,,611,622,3922.83,278.357,1990.87
,,,,,,,,,,,,,,,611.5,622.5,3935.74,279.281,1997.51
,,,,,,,,,,,,,,,612,623,3948.64,280.204,2004.15
,,,,,,,,,,,,,,,612.5,623.5,3961.51,281.127,2010.78
,,,,,,,,,,,,,,,613,624,3974.36,282.051,2017.42
,,,,,,,,,,,,,,,613.5,624.5,3987.19,282.974,2024.05
,,,,,,,,,,,,,,,614,625,4000,283.898,2030.69
,,,,,,,,,,,,,,,614.5,625.5,4012.79,284.821,2037.32
,,,,,,,,,,,,,,,615,626,4025.56,285.745,2043.96
,,,,,,,,,,,,,,,615.5,626.5,4038.31,286.668,2050.6
,,,,,,,,,,,,,,,616,627,4051.04,287.591,2057.23
,,,,,,,,,,,,,,,616.5,627.5,4063.75,288.515,2063.87
,,,,,,,,,,,,,,,617,628,4076.43,289.438,2070.5
,,,,,,,,,,,,,,,617.5,628.5,4089.1,290.362,2077.14
,,,,,,,,,,,,,,,618,629,4101.75,291.285,2083.78
,,,,,,,,,,,,,,,618.5,629.5,4114.38,292.209,2090.41
,,,,,,,,,,,,,,,619,630,4126.98,293.132,2097.05
,,,,,,,,,,,,,,,619.5,630.5,4139.57,294.055,2103.68
,,,,,,,,,,,,,,,620,631,4152.14,294.979,2110.32
,,,,,,,,,,,,,,,620.5,631.5,4164.69,295.902,2116.95
,,,,,,,,,,,,,,,621,632,4177.22,296.826,2123.59
,,,,,,,,,,,,,,,621.5,632.5,4189.72,297.749,2130.23
,,,,,,,,,,,,,,,622,633,4202.21,298.673,2136.86
,,,,,,,,,,,,,,,622.5,633.5,4214.68,299.596,2143.5
,,,,,,,,,,,,,,,623,634,4227.13,300.52,2150.13
,,,,,,,,,,,,,,,623.5,634.5,4239.56,301.443,2156.77
,,,,,,,,,,,,,,,624,635,4251.97,302.366,2163.4
,,,,,,,,,,,,,,,624.5,635.5,4264.36,303.29,2170.04
,,,,,,,,,,,,,,,625,636,4276.73,304.213,2176.68
,,,,,,,,,,,,,,,625.5,636.5,4289.08,305.137,2183.31
,,,,,,,,,,,,,,,626,637,4301.41,306.06,2189.95
,,,,,,,,,,,,,,,626.5,637.5,4313.73,306.984,2196.58
,,,,,,,,,,,,,,,627,638,4326.02,307.907,2203.22
,,,,,,,,,,,,,,,627.5,638.5,4338.29,308.83,2209.86
,,,,,,,,,,,,,,,628,639,4350.55,309.754,2216.49
,,,,,,,,,,,,,,,628.5,639.5,4362.78,310.677,2223.13
,,,,,,,,,,,,,,,629,640,4375,311.601,2229.76
,,,,,,,,,,,,,,,629.5,640.5,4387.2,312.524,2236.4
,,,,,,,,,,,,,,,630,641,4399.38,313.448,2243.03
,,,,,,,,,,,,,,,630.5,641.5,4411.54,314.371,2249.67
,,,,,,,,,,,,,,,631,642,4423.68,315.295,2256.31
,,,,,,,,,,,,,,,631.5,642.5,4435.8,316.218,2262.94
,,,,,,,,,,,,,,,632,643,4447.9,317.141,2269.58
,,,,,,,,,,,,,,,632.5,643.5,4459.98,318.065,2276.21
,,,,,,,,,,,,,,,633,644,4472.05,318.988,2282.85
,,,,,,,,,,,,,,,633.5,644.5,4484.1,319.912,2289.48
,,,,,,,,,,,,,,,634,645,4496.12,320.835,2296.12
,,,,,,,,,,,,,,,634.5,645.5,4508.13,321.759,2302.76
,,,,,,,,,,,,,,,635,646,4520.12,322.682,2309.39
,,,,,,,,,,,,,,,635.5,646.5,4532.1,323.605,2316.03
,,,,,,,,,,,,,,,636,647,4544.05,324.529,2322.66
,,,,,,,,,,,,,,,636.5,647.5,4555.98,325.452,2329.3
,,,,,,,,,,,,,,,637,648,4567.9,326.376,2335.94
,,,,,,,,,,,,,,,637.5,648.5,4579.8,327.299,2342.57
,,,,,,,,,,,,,,,638,649,4591.68,328.223,2349.21
,,,,,,,,,,,,,,,638.5,649.5,4603.54,329.146,2355.84
,,,,,,,,,,,,,,,639,650,4615.38,330.069,2362.48
,,,,,,,,,,,,,,,639.5,650.5,4627.21,330.993,2369.11
,,,,,,,,,,,,,,,640,651,4639.02,331.916,2375.75
,,,,,,,,,,,,,,,640.5,651.5,4650.81,332.84,2382.39
,,,,,,,,,,,,,,,641,652,4662.58,333.763,2389.02
,,,,,,,,,,,,,,,641.5,652.5,4674.33,334.687,2395.66
,,,,,,,,,,,,,,,642,653,4686.06,335.61,2402.29
,,,,,,,,,,,,,,,642.5,653.5,4697.78,336.534,2408.93
,,,,,,,,,,,,,,,643,654,4709.48,337.457,2415.56
,,,,,,,,,,,,,,,643.5,654.5,4721.16,338.38,2422.2
,,,,,,,,,,,,,,,644,655,4732.82,339.304,2428.84
,,,,,,,,,,,,,,,644.5,655.5,4744.47,340.227,2435.47
,,,,,,,,,,,,,,,645,656,4756.1,341.151,2442.11
,,,,,,,,,,,,,,,645.5,656.5,4767.71,342.074,2448.74
,,,,,,,,,,,,,,,646,657,4779.3,342.998,2455.38
,,,,,,,,,,,,,,,646.5,657.5,4790.87,343.921,2462.02
,,,,,,,,,,,,,,,647,658,4802.43,344.844,2468.65
,,,,,,,,,,,,,,,647.5,658.5,4813.97,345.768,2475.29
,,,,,,,,,,,,,,,648,659,4825.49,346.691,2481.92
,,,,,,,,,,,,,,,648.5,659.5,4837,347.615,2488.56
,,,,,,,,,,,,,,,649,660,4848.48,348.538,2495.19
,,,,,,,,,,,,,,,649.5,660.5,4859.95,349.462,2501.83
,,,,,,,,,,,,,,,650,661,4871.41,350.385,2508.47
,,,,,,,,,,,,,,,650.5,661.5,4882.84,351.309,2515.1
,,,,,,,,,,,,,,,651,662,4894.26,352.232,2521.74
,,,,,,,,,,,,,,,651.5,662.5,4905.66,353.155,2528.37
,,,,,,,,,,,,,,,652,663,4917.04,354.079,2535.01
,,,,,,,,,,,,,,,652.5,663.5,4928.41,355.002,2541.64
,,,,,,,,,,,,,,,653,664,4939.76,355.926,2548.28
,,,,,,,,,,,,,,,653.5,664.5,4951.09,356.849,2554.92
,,,,,,,,,,,,,,,654,665,4962.41,357.773,2561.55